File: xrd/xrd.txt
5.0000    30
5.0600    29
5.1200    21
5.1800    37
5.2400    30
5.3000    26
5.3600    21
5.4200    25
5.4800    19
5.5400    23
5.6000    24
5.6600    27
5.7200    26
5.7800    31
5.8400    30
5.9000    44
5.9600    43
6.0200    41
6.0800    45
6.1400    56
6.2000    54
6.2600    39
6.3200    35
6.3800    32
6.4400    20
6.5000    21
6.5600    28
6.6200    20
6.6800    21
6.7400    28
6.8000    17
6.8600    26
6.9200    22
6.9800    26
7.0400    20
7.1000    30
7.1600    28
7.2200    23
7.2800    16
7.3400    25
7.4000    20
7.4600    24
7.5200    30
7.5800    28
7.6400    26
7.7000    25
7.7600    18
7.8200    22
7.8800    24
7.9400    39
8.0000    17
8.0600    27
8.1200    23
8.1800    23
8.2400    32
8.3000    28
8.3600    20
8.4200    38
8.4800    26
8.5400    47
8.6000    33
8.6600    49
8.7200    41
8.7800    63
8.8400    50
8.9000    55
8.9600    53
9.0200    28
9.0800    29
9.1400    15
9.2000    33
9.2600    20
9.3200    20
9.3800    10
9.4400    21
9.5000    15
9.5600    16
9.6200    12
9.6800    10
9.7400    10
9.8000    16
9.8600    8
9.9200    15
9.9800    9
10.0400   11
10.1000   18
10.1600   11
10.2200   15
10.2800   14
10.3400   9
10.4000   13
10.4600   8
10.5200   12
10.5800   13
10.6400   7
10.7000   15
10.7600   12
10.8200   15
10.8800   12
10.9400   11
11.0000   6
11.0600   11
11.1200   6
11.1800   11
11.2400   6
11.3000   8
11.3600   14
11.4200   7
11.4800   7
11.5400   2
11.6000   15
11.6600   10
11.7200   12
11.7800   17
11.8400   19
11.9000   12
11.9600   13
12.0200   15
12.0800   16
12.1400   23
12.2000   42
12.2600   30
12.3200   36
12.3800   43
12.4400   51
12.5000   53
12.5600   46
12.6200   31
12.6800   15
12.7400   14
12.8000   13
12.8600   10
12.9200   11
12.9800   8
13.0400   5
13.1000   15
13.1600   8
13.2200   9
13.2800   12
13.3400   8
13.4000   11
13.4600   7
13.5200   9
13.5800   13
13.6400   7
13.7000   4
13.7600   12
13.8200   10
13.8800   4
13.9400   7
14.0000   6
14.0600   9
14.1200   5
14.1800   6
14.2400   5
14.3000   7
14.3600   8
14.4200   10
14.4800   6
14.5400   6
14.6000   7
14.6600   7
14.7200   7
14.7800   3
14.8400   8
14.9000   11
14.9600   9
15.0200   10
15.0800   12
15.1400   9
15.2000   10
15.2600   7
15.3200   13
15.3800   8
15.4400   7
15.5000   8
15.5600   6
15.6200   6
15.6800   4
15.7400   10
15.8000   7
15.8600   13
15.9200   8
15.9800   10
16.0400   7
16.1000   7
16.1600   7
16.2200   5
16.2800   5
16.3400   9
16.4000   5
16.4600   11
16.5200   7
16.5800   8
16.6400   4
16.7000   9
16.7600   6
16.8200   7
16.8800   6
16.9400   6
17.0000   7
17.0600   10
17.1200   6
17.1800   8
17.2400   8
17.3000   11
17.3600   8
17.4200   14
17.4800   15
17.5400   21
17.6000   23
17.6600   23
17.7200   34
17.7800   45
17.8400   35
17.9000   23
17.9600   24
18.0200   10
18.0800   9
18.1400   16
18.2000   15
18.2600   9
18.3200   12
18.3800   13
18.4400   14
18.5000   15
18.5600   10
18.6200   13
18.6800   21
18.7400   18
18.8000   20
18.8600   17
18.9200   17
18.9800   10
19.0400   11
19.1000   11
19.1600   12
19.2200   14
19.2800   7
19.3400   10
19.4000   15
19.4600   11
19.5200   7
19.5800   16
19.6400   21
19.7000   30
19.7600   54
19.8200   48
19.8800   49
19.9400   38
20.0000   30
20.0600   21
20.1200   22
20.1800   19
20.2400   14
20.3000   30
20.3600   25
20.4200   18
20.4800   23
20.5400   23
20.6000   20
20.6600   26
20.7200   37
20.7800   61
20.8400   108
20.9000   132
20.9600   89
21.0200   31
21.0800   20
21.1400   22
21.2000   15
21.2600   14
21.3200   21
21.3800   18
21.4400   15
21.5000   18
21.5600   12
21.6200   11
21.6800   12
21.7400   9
21.8000   17
21.8600   13
21.9200   11
21.9800   16
22.0400   14
22.1000   26
22.1600   13
22.2200   20
22.2800   13
22.3400   7
22.4000   12
22.4600   10
22.5200   18
22.5800   13
22.6400   9
22.7000   13
22.7600   17
22.8200   11
22.8800   19
22.9400   20
23.0000   14
23.0600   14
23.1200   12
23.1800   14
23.2400   10
23.3000   16
23.3600   12
23.4200   14
23.4800   21
23.5400   12
23.6000   18
23.6600   18
23.7200   12
23.7800   14
23.8400   19
23.9000   16
23.9600   18
24.0200   18
24.0800   9
24.1400   17
24.2000   23
24.2600   18
24.3200   16
24.3800   23
24.4400   22
24.5000   20
24.5600   14
24.6200   13
24.6800   29
24.7400   17
24.8000   29
24.8600   31
24.9200   37
24.9800   35
25.0400   44
25.1000   36
25.1600   43
25.2200   47
25.2800   52
25.3400   44
25.4000   30
25.4600   44
25.5200   29
25.5800   20
25.6400   24
25.7000   16
25.7600   24
25.8200   20
25.8800   19
25.9400   17
26.0000   12
26.0600   16
26.1200   22
26.1800   20
26.2400   21
26.3000   23
26.3600   49
26.4200   46
26.4800   89
26.5400   141
26.6000   389
26.6600   618
26.7200   609
26.7800   303
26.8400   123
26.9000   88
26.9600   77
27.0200   50
27.0800   36
27.1400   30
27.2000   31
27.2600   24
27.3200   32
27.3800   37
27.4400   34
27.5000   18
27.5600   28
27.6200   18
27.6800   21
27.7400   36
27.8000   32
27.8600   43
27.9200   52
27.9800   48
28.0400   55
28.1000   26
28.1600   27
28.2200   28
28.2800   23
28.3400   27
28.4000   9
28.4600   18
28.5200   12
28.5800   16
28.6400   14
28.7000   19
28.7600   20
28.8200   17
28.8800   11
28.9400   9
29.0000   17
29.0600   15
29.1200   20
29.1800   18
29.2400   16
29.3000   13
29.3600   18
29.4200   18
29.4800   8
29.5400   17
29.6000   22
29.6600   14
29.7200   13
29.7800   19
29.8400   19
29.9000   28
29.9600   26
30.0200   16
30.0800   16
30.1400   27
30.2000   20
30.2600   15
30.3200   16
30.3800   17
30.4400   17
30.5000   16
30.5600   11
30.6200   11
30.6800   16
30.7400   16
30.8000   12
30.8600   20
30.9200   16
30.9800   12
31.0400   19
31.1000   15
31.1600   13
31.2200   22
31.2800   24
31.3400   22
31.4000   21
31.4600   13
31.5200   14
31.5800   12
31.6400   15
31.7000   15
31.7600   14
31.8200   15
31.8800   8
31.9400   18
32.0000   13
32.0600   19
32.1200   20
32.1800   12
32.2400   14
32.3000   6
32.3600   8
32.4200   5
32.4800   9
32.5400   9
32.6000   7
32.6600   2
32.7200   9
32.7800   9
32.8400   8
32.9000   8
32.9600   8
33.0200   10
33.0800   8
33.1400   12
33.2000   13
33.2600   12
33.3200   12
33.3800   8
33.4400   12
33.5000   12
33.5600   13
33.6200   9
33.6800   8
33.7400   13
33.8000   13
33.8600   10
33.9200   11
33.9800   16
34.0400   12
34.1000   7
34.1600   11
34.2200   9
34.2800   13
34.3400   10
34.4000   21
34.4600   22
34.5200   26
34.5800   42
34.6400   29
34.7000   45
34.7600   26
34.8200   48
34.8800   36
34.9400   57
35.0000   48
35.0600   53
35.1200   36
35.1800   26
35.2400   23
35.3000   18
35.3600   10
35.4200   15
35.4800   19
35.5400   13
35.6000   14
35.6600   21
35.7200   14
35.7800   8
35.8400   12
35.9000   14
35.9600   16
36.0200   16
36.0800   22
36.1400   21
36.2000   12
36.2600   17
36.3200   11
36.3800   14
36.4400   23
36.5000   24
36.5600   55
36.6200   64
36.6800   47
36.7400   26
36.8000   28
36.8600   33
36.9200   17
36.9800   21
37.0400   21
37.1000   13
37.1600   9
37.2200   6
37.2800   10
37.3400   20
37.4000   12
37.4600   16
37.5200   21
37.5800   16
37.6400   22
37.7000   32
37.7600   16
37.8200   23
37.8800   22
37.9400   12
38.0000   14
38.0600   11
38.1200   18
38.1800   7
38.2400   15
38.3000   12
38.3600   13
38.4200   11
38.4800   13
38.5400   14
38.6000   9
38.6600   10
38.7200   13
38.7800   12
38.8400   13
38.9000   10
38.9600   11
39.0200   6
39.0800   8
39.1400   9
39.2000   10
39.2600   8
39.3200   6
39.3800   7
39.4400   26
39.5000   43
39.5600   58
39.6200   33
39.6800   22
39.7400   16
39.8000   11
39.8600   7
39.9200   18
39.9800   14
40.0400   11
40.1000   11
40.1600   14
40.2200   14
40.2800   14
40.3400   32
40.4000   30
40.4600   14
40.5200   16
40.5800   12
40.6400   13
40.7000   5
40.7600   5
40.8200   14
40.8800   13
40.9400   18
41.0000   5
41.0600   9
41.1200   6
41.1800   8
41.2400   8
41.3000   8
41.3600   12
41.4200   10
41.4800   11
41.5400   11
41.6000   15
41.6600   6
41.7200   5
41.7800   6
41.8400   10
41.9000   10
41.9600   13
42.0200   13
42.0800   7
42.1400   7
42.2000   15
42.2600   15
42.3200   13
42.3800   21
42.4400   34
42.5000   60
42.5600   25
42.6200   31
42.6800   24
42.7400   12
42.8000   11
42.8600   10
42.9200   17
42.9800   7
43.0400   6
43.1000   5
43.1600   7
43.2200   7
43.2800   6
43.3400   10
43.4000   10
43.4600   6
43.5200   11
43.5800   4
43.6400   8
43.7000   11
43.7600   4
43.8200   9
43.8800   12
43.9400   4
44.0000   8
44.0600   11
44.1200   9
44.1800   7
44.2400   7
44.3000   16
44.3600   12
44.4200   5
44.4800   7
44.5400   7
44.6000   8
44.6600   6
44.7200   8
44.7800   9
44.8400   10
44.9000   16
44.9600   18
45.0200   14
45.0800   20
45.1400   14
45.2000   17
45.2600   17
45.3200   36
45.3800   24
45.4400   31
45.5000   32
45.5600   28
45.6200   33
45.6800   25
45.7400   28
45.8000   33
45.8600   33
45.9200   39
45.9800   26
46.0400   22
46.1000   10
46.1600   12
46.2200   5
46.2800   13
46.3400   6
46.4000   10
46.4600   7
46.5200   3
46.5800   11
46.6400   6
46.7000   14
46.7600   12
46.8200   10
46.8800   9
46.9400   7
47.0000   8
47.0600   4
47.1200   6
47.1800   2
47.2400   4
47.3000   6
47.3600   10
47.4200   6
47.4800   7
47.5400   7
47.6000   10
47.6600   6
47.7200   9
47.7800   6
47.8400   1
47.9000   6
47.9600   11
48.0200   11
48.0800   13
48.1400   9
48.2000   8
48.2600   8
48.3200   10
48.3800   8
48.4400   6
48.5000   11
48.5600   9
48.6200   5
48.6800   6
48.7400   7
48.8000   2
48.8600   6
48.9200   4
48.9800   4
49.0400   2
49.1000   5
49.1600   7
49.2200   5
49.2800   2
49.3400   2
49.4000   6
49.4600   12
49.5200   3
49.5800   7
49.6400   6
49.7000   6
49.7600   6
49.8200   9
49.8800   6
49.9400   9
50.0000   11
50.0600   18
50.1200   51
50.1800   73
50.2400   68
50.3000   41
50.3600   50
50.4200   13
50.4800   9
50.5400   5
50.6000   6
50.6600   10
50.7200   5
50.7800   9
50.8400   11
50.9000   5
50.9600   5
51.0200   2
51.0800   5
51.1400   13
51.2000   7
51.2600   5
51.3200   4
51.3800   4
51.4400   6
51.5000   5
51.5600   2
51.6200   5
51.6800   2
51.7400   6
51.8000   8
51.8600   9
51.9200   4
51.9800   6
52.0400   5
52.1000   3
52.1600   7
52.2200   4
52.2800   7
52.3400   6
52.4000   5
52.4600   8
52.5200   8
52.5800   7
52.6400   8
52.7000   4
52.7600   9
52.8200   1
52.8800   2
52.9400   11
53.0000   4
53.0600   17
53.1200   8
53.1800   7
53.2400   6
53.3000   11
53.3600   16
53.4200   4
53.4800   11
53.5400   13
53.6000   16
53.6600   8
53.7200   8
53.7800   8
53.8400   8
53.9000   14
53.9600   16
54.0200   10
54.0800   9
54.1400   10
54.2000   3
54.2600   8
54.3200   14
54.3800   23
54.4400   8
54.5000   14
54.5600   16
54.6200   11
54.6800   12
54.7400   13
54.8000   12
54.8600   27
54.9200   28
54.9800   26
55.0400   20
55.1000   40
55.1600   26
55.2200   13
55.2800   20
55.3400   22
55.4000   26
55.4600   19
55.5200   21
55.5800   15
55.6400   20
55.7000   18
55.7600   10
55.8200   15
55.8800   17
55.9400   15
56.0000   14
56.0600   8
56.1200   9
56.1800   19
56.2400   18
56.3000   14
56.3600   7
56.4200   9
56.4800   13
56.5400   8
56.6000   16
56.6600   7
56.7200   13
56.7800   7
56.8400   6
56.9000   12
56.9600   5
57.0200   8
57.0800   17
57.1400   9
57.2000   15
57.2600   9
57.3200   11
57.3800   11
57.4400   12
57.5000   9
57.5600   4
57.6200   13
57.6800   8
57.7400   14
57.8000   11
57.8600   10
57.9200   7
57.9800   7
58.0400   7
58.1000   7
58.1600   7
58.2200   7
58.2800   9
58.3400   5
58.4000   8
58.4600   9
58.5200   10
58.5800   11
58.6400   6
58.7000   5
58.7600   13
58.8200   6
58.8800   2
58.9400   11
59.0000   9
59.0600   10
59.1200   7
59.1800   10
59.2400   12
59.3000   19
59.3600   10
59.4200   10
59.4800   11
59.5400   5
59.6000   7
59.6600   15
59.7200   15
59.7800   13
59.8400   15
59.9000   30
59.9600   39
60.0000   45