File: TG/date.csv
#FILE:                       ,sws-10k.dsv
#FORMAT:                     ,NETZSCH5
#IDENTITY:                   ,1
#DECIMAL:                    ,POINT
#SEPARATOR:                  ,COMMA
#MTYPE:                      ,DTA
#MSUBTYPE:                   ,
#INSTRUMENT:                 ,NETZSCH STA 409 PC/PG
#PROJECT:                    ,
#DATE/TIME:                  ,2002-1-2 15:27:37
#CORR. FILE:                 ,10k.bsv
#LABORATORY:                 ,
#OPERATOR:                   ,1
#REMARK:                     ,
#SAMPLE:                     ,1
#SAMPLE MASS /mg:            ,29.908
#MATERIAL:                   ,
#REFERENCE:                  ,yes
#REFERENCE MASS /mg:         ,0.000
#TYPE OF CRUCIBLE:           ,DTA/TG crucible Al2O3
#SAMPLE CRUCIBLE MASS /mg:   ,0.000
#REFERENCE CRUCIBLE MASS /mg:,0.000
#GAS 1:                      ,
#FLOW RATE 1:                ,
#GAS 2:                      ,air
#FLOW RATE 2 /(ml/min):      ,50
#CORR. CODE:                 ,820
#EXO:                        ,+1
#RANGE:                      ,30/10.0(K/min)/1000
#SEGMENT:                    ,S1/1

##Temp./°„C,Time/min,DTA/(uV/mg),Mass/%,DTG/(%/min),Sensit./(¶ÃV/mW)
 32.61400,0.0000e+000, 2.4846e-002,100, 2.0700e-002,1.00000
 35.11400,    2.53022,-3.6006e-002,100.038, 2.5245e-002,1.00000
 37.61400,    3.00988,-6.7359e-002,100.051, 3.2234e-002,1.00000
 40.11400,    3.36243,-9.3221e-002,100.064, 3.5870e-002,1.00000
 42.61400,    3.65735,    -0.11594,100.074, 3.6547e-002,1.00000
 45.11400,    3.91687,    -0.13632,100.084, 3.4601e-002,1.00000
 47.61400,    4.15303,    -0.15492,100.091, 3.0483e-002,1.00000
 50.11400,    4.37419,    -0.17219,100.097, 2.4589e-002,1.00000
 52.61400,    4.58139,    -0.18810,100.102, 1.7411e-002,1.00000
 55.11400,    4.78047,    -0.20304,100.105, 9.2202e-003,1.00000
 57.61400,    4.97122,    -0.21695,100.105, 4.4532e-004,1.00000
 60.11400,    5.15692,    -0.23004,100.105,-8.6808e-003,1.00000
 62.61400,    5.33710,    -0.24227,100.102,-1.7810e-002,1.00000
 65.11400,    5.51440,    -0.25381,100.098,-2.6820e-002,1.00000
 67.61400,    5.68897,    -0.26466,100.093,-3.5546e-002,1.00000
 70.11400,    5.86117,    -0.27483,100.086,-4.3916e-002,1.00000
 72.61400,    6.03213,    -0.28439,100.078,-5.1973e-002,1.00000
 75.11400,    6.20250,    -0.29336,100.068,-5.9783e-002,1.00000
 77.61400,    6.37243,    -0.30172,100.058,-6.7417e-002,1.00000
 80.11400,    6.54264,    -0.30950,100.045,-7.4960e-002,1.00000
 82.61400,    6.71277,    -0.31666,100.032,-8.2410e-002,1.00000
 85.11400,    6.88262,    -0.32317,100.017,-8.9717e-002,1.00000
 87.61400,    7.05288,    -0.32903,100.002,-9.6812e-002,1.00000
 90.11400,    7.22370,    -0.33424, 99.98442,    -0.10355,1.00000
 92.61400,    7.39552,    -0.33877, 99.96608,    -0.10980,1.00000
 95.11400,    7.56819,    -0.34263, 99.94662,    -0.11538,1.00000
 97.61400,    7.74239,    -0.34580, 99.92608,    -0.12018,1.00000
100.114,    7.91869,    -0.34829, 99.90452,    -0.12411,1.00000
102.614,    8.09728,    -0.35009, 99.88207,    -0.12709,1.00000
105.114,    8.27813,    -0.35120, 99.85889,    -0.12906,1.00000
107.614,    8.46116,    -0.35164, 99.83516,    -0.13000,1.00000
110.114,    8.64742,    -0.35139, 99.81093,    -0.12991,1.00000
112.614,    8.83662,    -0.35049, 99.78643,    -0.12877,1.00000
115.114,    9.02880,    -0.34895, 99.76187,    -0.12663,1.00000
117.614,    9.22349,    -0.34679, 99.73750,    -0.12356,1.00000
120.114,    9.42157,    -0.34405, 99.71339,    -0.11971,1.00000
122.614,    9.62295,    -0.34075, 99.68972,    -0.11528,1.00000
125.114,    9.82597,    -0.33696, 99.66679,    -0.11058,1.00000
127.614,   10.03196,    -0.33272, 99.64450,    -0.10583,1.00000
130.114,   10.24085,    -0.32808, 99.62288,    -0.10119,1.00000
132.614,   10.45168,    -0.32310, 99.60203,-9.6739e-002,1.00000
135.114,   10.66522,    -0.31784, 99.58183,-9.2394e-002,1.00000
137.614,   10.88065,    -0.31236, 99.56240,-8.8072e-002,1.00000
140.114,   11.09838,    -0.30672, 99.54370,-8.3701e-002,1.00000
142.614,   11.31769,    -0.30098, 99.52582,-7.9317e-002,1.00000
145.114,   11.53942,    -0.29516, 99.50872,-7.4990e-002,1.00000
147.614,   11.76306,    -0.28930, 99.49242,-7.0816e-002,1.00000
150.114,   11.98810,    -0.28344, 99.47694,-6.6840e-002,1.00000
152.614,   12.21415,    -0.27760, 99.46226,-6.3061e-002,1.00000
155.114,   12.44274,    -0.27177, 99.44826,-5.9465e-002,1.00000
157.614,   12.67183,    -0.26602, 99.43502,-5.6170e-002,1.00000
160.114,   12.90218,    -0.26035, 99.42243,-5.3309e-002,1.00000
162.614,   13.13411,    -0.25475, 99.41035,-5.1005e-002,1.00000
165.114,   13.36726,    -0.24925, 99.39867,-4.9253e-002,1.00000
167.614,   13.60140,    -0.24383, 99.38731,-4.7867e-002,1.00000
170.114,   13.83593,    -0.23850, 99.37623,-4.6544e-002,1.00000
172.614,   14.07157,    -0.23324, 99.36544,-4.5008e-002,1.00000
175.114,   14.30695,    -0.22806, 99.35505,-4.3198e-002,1.00000
177.614,   14.54313,    -0.22295, 99.34508,-4.1298e-002,1.00000
180.114,   14.77893,    -0.21792, 99.33554,-3.9681e-002,1.00000
182.614,   15.01530,    -0.21296, 99.32630,-3.8687e-002,1.00000
185.114,   15.25231,    -0.20804, 99.31717,-3.8468e-002,1.00000
187.614,   15.48906,    -0.20317, 99.30803,-3.8906e-002,1.00000
190.114,   15.72647,    -0.19832, 99.29870,-3.9690e-002,1.00000
192.614,   15.96321,    -0.19349, 99.28921,-4.0440e-002,1.00000
195.114,   16.20134,    -0.18864, 99.27952,-4.0816e-002,1.00000
197.614,   16.43914,    -0.18378, 99.26983,-4.0555e-002,1.00000
200.114,   16.67791,    -0.17888, 99.26025,-3.9520e-002,1.00000
202.614,   16.91726,    -0.17394, 99.25099,-3.7752e-002,1.00000
205.114,   17.15650,    -0.16897, 99.24222,-3.5496e-002,1.00000
207.614,   17.39718,    -0.16396, 99.23397,-3.3082e-002,1.00000
210.114,   17.63783,    -0.15893, 99.22628,-3.0801e-002,1.00000
212.614,   17.87899,    -0.15388, 99.21911,-2.8706e-002,1.00000
215.114,   18.12112,    -0.14880, 99.21241,-2.6638e-002,1.00000
217.614,   18.36319,    -0.14371, 99.20622,-2.4427e-002,1.00000
220.114,   18.60564,    -0.13861, 99.20058,-2.2121e-002,1.00000
222.614,   18.84816,    -0.13350, 99.19548,-2.0120e-002,1.00000
225.114,   19.09201,    -0.12837, 99.19073,-1.9023e-002,1.00000
227.614,   19.33599,    -0.12326, 99.18610,-1.9307e-002,1.00000
230.114,   19.58091,    -0.11814, 99.18119,-2.0977e-002,1.00000
232.614,   19.82595,    -0.11304, 99.17576,-2.3469e-002,1.00000
235.114,   20.07084,    -0.10796, 99.16970,-2.5896e-002,1.00000
237.614,   20.31687,    -0.10287, 99.16311,-2.7444e-002,1.00000
240.114,   20.56281,-9.7791e-002, 99.15630,-2.7648e-002,1.00000
242.614,   20.80906,-9.2729e-002, 99.14960,-2.6507e-002,1.00000
245.114,   21.05588,-8.7685e-002, 99.14330,-2.4345e-002,1.00000
247.614,   21.30331,-8.2662e-002, 99.13760,-2.1644e-002,1.00000
250.114,   21.55060,-7.7667e-002, 99.13259,-1.8930e-002,1.00000
252.614,   21.79805,-7.2671e-002, 99.12821,-1.6682e-002,1.00000
255.114,   22.04586,-6.7645e-002, 99.12427,-1.5276e-002,1.00000
257.614,   22.29438,-6.2558e-002, 99.12055,-1.4901e-002,1.00000
260.114,   22.54316,-5.7405e-002, 99.11679,-1.5473e-002,1.00000
262.614,   22.79179,-5.2194e-002, 99.11281,-1.6632e-002,1.00000
265.114,   23.04112,-4.6910e-002, 99.10850,-1.7904e-002,1.00000
267.614,   23.29012,-4.1586e-002, 99.10391,-1.8901e-002,1.00000
270.114,   23.53943,-3.6221e-002, 99.09911,-1.9538e-002,1.00000
272.614,   23.78906,-3.0835e-002, 99.09417,-2.0036e-002,1.00000
275.114,   24.03901,-2.5452e-002, 99.08908,-2.0763e-002,1.00000
277.614,   24.28894,-2.0093e-002, 99.08376,-2.1978e-002,1.00000
280.114,   24.53913,-1.4757e-002, 99.07805,-2.3695e-002,1.00000
282.614,   24.78972,-9.4285e-003, 99.07187,-2.5723e-002,1.00000
285.114,   25.04082,-4.0874e-003, 99.06514,-2.7839e-002,1.00000
287.614,   25.29173, 1.2608e-003, 99.05789,-2.9931e-002,1.00000
290.114,   25.54319, 6.6240e-003, 99.05010,-3.2064e-002,1.00000
292.614,   25.79512, 1.1975e-002, 99.04174,-3.4385e-002,1.00000
295.114,   26.04606, 1.7250e-002, 99.03279,-3.6964e-002,1.00000
297.614,   26.29862, 2.2486e-002, 99.02311,-3.9737e-002,1.00000
300.114,   26.54998, 2.7626e-002, 99.01278,-4.2423e-002,1.00000
302.614,   26.80221, 3.2746e-002, 99.00177,-4.4795e-002,1.00000
305.114,   27.05428, 3.7874e-002, 98.99021,-4.6814e-002,1.00000
307.614,   27.30671, 4.3069e-002, 98.97816,-4.8743e-002,1.00000
310.114,   27.55895, 4.8358e-002, 98.96559,-5.0993e-002,1.00000
312.614,   27.81177, 5.3770e-002, 98.95235,-5.3907e-002,1.00000
315.114,   28.06392, 5.9275e-002, 98.93831,-5.7591e-002,1.00000
317.614,   28.31681, 6.4885e-002, 98.92321,-6.1997e-002,1.00000
320.114,   28.56938, 7.0550e-002, 98.90694,-6.6951e-002,1.00000
322.614,   28.82279, 7.6263e-002, 98.88930,-7.2320e-002,1.00000
325.114,   29.07586, 8.1951e-002, 98.87029,-7.7981e-002,1.00000
327.614,   29.32913, 8.7556e-002, 98.84979,-8.3948e-002,1.00000
330.114,   29.58247, 9.2980e-002, 98.82773,-9.0356e-002,1.00000
332.614,   29.83576, 9.8101e-002, 98.80397,-9.7421e-002,1.00000
335.114,   30.08953,     0.10280, 98.77826,    -0.10533,1.00000
337.614,   30.34339,     0.10695, 98.75043,    -0.11411,1.00000
340.114,   30.59755,     0.11046, 98.72024,    -0.12361,1.00000
342.614,   30.85133,     0.11328, 98.68760,    -0.13368,1.00000
345.114,   31.10531,     0.11544, 98.65231,    -0.14436,1.00000
347.614,   31.36012,     0.11699, 98.61408,    -0.15598,1.00000
350.114,   31.61465,     0.11803, 98.57277,    -0.16904,1.00000
352.614,   31.86948,     0.11862, 98.52781,    -0.18429,1.00000
355.114,   32.12418,     0.11883, 98.47865,    -0.20244,1.00000
357.614,   32.37858,     0.11867, 98.42449,    -0.22408,1.00000
360.114,   32.63321,     0.11812, 98.36429,    -0.24959,1.00000
362.614,   32.88798,     0.11715, 98.29707,    -0.27886,1.00000
365.114,   33.14307,     0.11571, 98.22186,    -0.31136,1.00000
367.614,   33.39771,     0.11376, 98.13819,    -0.34620,1.00000
370.114,   33.65252,     0.11128, 98.04536,    -0.38278,1.00000
372.614,   33.90715,     0.10823, 97.94310,    -0.42068,1.00000
375.114,   34.16148,     0.10462, 97.83117,    -0.45970,1.00000
377.614,   34.41670,     0.10043, 97.70876,    -0.49973,1.00000
380.114,   34.67154, 9.5718e-002, 97.57628,    -0.53997,1.00000
382.614,   34.92631, 9.0564e-002, 97.43363,    -0.57954,1.00000
385.114,   35.18111, 8.5101e-002, 97.28109,    -0.61730,1.00000
387.614,   35.43721, 7.9525e-002, 97.11845,    -0.65197,1.00000
390.114,   35.69358, 7.4182e-002, 96.94735,    -0.68156,1.00000
392.614,   35.95001, 6.9493e-002, 96.76948,    -0.70400,1.00000
395.114,   36.20635, 6.5912e-002, 96.58705,    -0.71739,1.00000
397.614,   36.46345, 6.3846e-002, 96.40193,    -0.72046,1.00000
400.114,   36.71920, 6.3596e-002, 96.21835,    -0.71300,1.00000
402.614,   36.97482, 6.5256e-002, 96.03805,    -0.69593,1.00000
405.114,   37.22942, 6.8741e-002, 95.86384,    -0.67116,1.00000
407.614,   37.48500, 7.3872e-002, 95.69607,    -0.64085,1.00000
410.114,   37.73994, 8.0348e-002, 95.53688,    -0.60761,1.00000
412.614,   37.99526, 8.7925e-002, 95.38612,    -0.57331,1.00000
415.114,   38.25091, 9.6396e-002, 95.24393,    -0.53917,1.00000
417.614,   38.50574,     0.10559, 95.11083,    -0.50547,1.00000
420.114,   38.76109,     0.11549, 94.98609,    -0.47130,1.00000
422.614,   39.01632,     0.12606, 94.87029,    -0.43569,1.00000
425.114,   39.27082,     0.13727, 94.76414,    -0.39812,1.00000
427.614,   39.52548,     0.14909, 94.66773,    -0.35884,1.00000
430.114,   39.78033,     0.16140, 94.58134,    -0.31922,1.00000
432.614,   40.03459,     0.17393, 94.50506,    -0.28131,1.00000
435.114,   40.28923,     0.18647, 94.43794,    -0.24676,1.00000
437.614,   40.54344,     0.19870, 94.37914,    -0.21687,1.00000
440.114,   40.79792,     0.21041, 94.32724,    -0.19200,1.00000
442.614,   41.05243,     0.22143, 94.28105,    -0.17198,1.00000
445.114,   41.30662,     0.23162, 94.23943,    -0.15628,1.00000
447.614,   41.55994,     0.24090, 94.20146,    -0.14421,1.00000
450.114,   41.81293,     0.24925, 94.16619,    -0.13511,1.00000
452.614,   42.06677,     0.25670, 94.13280,    -0.12848,1.00000
455.114,   42.32039,     0.26324, 94.10084,    -0.12394,1.00000
457.614,   42.57398,     0.26895, 94.06981,    -0.12105,1.00000
460.114,   42.82795,     0.27395, 94.03931,    -0.11937,1.00000
462.614,   43.08256,     0.27836, 94.00905,    -0.11847,1.00000
465.114,   43.33596,     0.28225, 93.97909,    -0.11812,1.00000
467.614,   43.58951,     0.28573, 93.94913,    -0.11830,1.00000
470.114,   43.84282,     0.28885, 93.91908,    -0.11910,1.00000
472.614,   44.09610,     0.29167, 93.88874,    -0.12058,1.00000
475.114,   44.34911,     0.29421, 93.85799,    -0.12259,1.00000
477.614,   44.60265,     0.29657, 93.82663,    -0.12483,1.00000
480.114,   44.85640,     0.29881, 93.79468,    -0.12692,1.00000
482.614,   45.10957,     0.30100, 93.76232,    -0.12866,1.00000
485.114,   45.36268,     0.30321, 93.72956,    -0.13014,1.00000
487.614,   45.61616,     0.30547, 93.69638,    -0.13174,1.00000
490.114,   45.86878,     0.30775, 93.66284,    -0.13392,1.00000
492.614,   46.12217,     0.31006, 93.62854,    -0.13703,1.00000
495.114,   46.37512,     0.31235, 93.59340,    -0.14099,1.00000
497.614,   46.62762,     0.31459, 93.55725,    -0.14537,1.00000
500.114,   46.88087,     0.31679, 93.51988,    -0.14970,1.00000
502.614,   47.13373,     0.31894, 93.48151,    -0.15372,1.00000
505.114,   47.38653,     0.32103, 93.44216,    -0.15765,1.00000
507.614,   47.63919,     0.32307, 93.40179,    -0.16207,1.00000
510.114,   47.89139,     0.32503, 93.36026,    -0.16751,1.00000
512.614,   48.14392,     0.32689, 93.31714,    -0.17423,1.00000
515.114,   48.39671,     0.32862, 93.27214,    -0.18201,1.00000
517.614,   48.64989,     0.33022, 93.22501,    -0.19036,1.00000
520.114,   48.90284,     0.33168, 93.17578,    -0.19882,1.00000
522.614,   49.15648,     0.33304, 93.12429,    -0.20721,1.00000
525.114,   49.40937,     0.33430, 93.07083,    -0.21552,1.00000
527.614,   49.66164,     0.33549, 93.01541,    -0.22390,1.00000
530.114,   49.91451,     0.33658, 92.95771,    -0.23259,1.00000
532.614,   50.16729,     0.33755, 92.89777,    -0.24171,1.00000
535.114,   50.41960,     0.33840, 92.83558,    -0.25140,1.00000
537.614,   50.67281,     0.33912, 92.77062,    -0.26183,1.00000
540.114,   50.92502,     0.33971, 92.70320,    -0.27302,1.00000
542.614,   51.17794,     0.34020, 92.63264,    -0.28510,1.00000
545.114,   51.43036,     0.34058, 92.55908,    -0.29789,1.00000
547.614,   51.68261,     0.34086, 92.48227,    -0.31112,1.00000
550.114,   51.93487,     0.34102, 92.40212,    -0.32435,1.00000
552.614,   52.18694,     0.34104, 92.31872,    -0.33718,1.00000
555.114,   52.43915,     0.34092, 92.23213,    -0.34938,1.00000
557.614,   52.69170,     0.34064, 92.14242,    -0.36085,1.00000
560.114,   52.94422,     0.34022, 92.04993,    -0.37153,1.00000
562.614,   53.19586,     0.33963, 91.95518,    -0.38133,1.00000
565.114,   53.44836,     0.33886, 91.85774,    -0.39034,1.00000
567.614,   53.70022,     0.33787, 91.75836,    -0.39873,1.00000
570.114,   53.95204,     0.33663, 91.65692,    -0.40695,1.00000
572.614,   54.20431,     0.33508, 91.55319,    -0.41559,1.00000
575.114,   54.45697,     0.33320, 91.44700,    -0.42517,1.00000
577.614,   54.70919,     0.33094, 91.33843,    -0.43604,1.00000
580.114,   54.96099,     0.32827, 91.22712,    -0.44848,1.00000
582.614,   55.21321,     0.32511, 91.11224,    -0.46291,1.00000
585.114,   55.46630,     0.32142, 90.99300,    -0.47991,1.00000
587.614,   55.71765,     0.31715, 90.86994,    -0.50004,1.00000
590.114,   55.97032,     0.31220, 90.74065,    -0.52424,1.00000
592.614,   56.22264,     0.30655, 90.60490,    -0.55278,1.00000
595.114,   56.47493,     0.30014, 90.46140,    -0.58562,1.00000
597.614,   56.72685,     0.29298, 90.30935,    -0.62216,1.00000
600.114,   56.97891,     0.28505, 90.14762,    -0.66174,1.00000
602.614,   57.23091,     0.27639, 89.97564,    -0.70358,1.00000
605.114,   57.48375,     0.26703, 89.79227,    -0.74715,1.00000
607.614,   57.73587,     0.25713, 89.59832,    -0.79145,1.00000
610.114,   57.98789,     0.24674, 89.39327,    -0.83566,1.00000
612.614,   58.24024,     0.23595, 89.17692,    -0.87871,1.00000
615.114,   58.49239,     0.22491, 88.95015,    -0.91933,1.00000
617.614,   58.74438,     0.21373, 88.71371,    -0.95650,1.00000
620.114,   58.99641,     0.20258, 88.46838,    -0.98937,1.00000
622.614,   59.24872,     0.19165, 88.21509,    -1.01725,1.00000
625.114,   59.50045,     0.18125, 87.95607,    -1.03938,1.00000
627.614,   59.75305,     0.17159, 87.69135,    -1.05522,1.00000
630.114,   60.00451,     0.16301, 87.42470,    -1.06415,1.00000
632.614,   60.25653,     0.15568, 87.15609,    -1.06603,1.00000
635.114,   60.50853,     0.14976, 86.88791,    -1.06099,1.00000
637.614,   60.76027,     0.14533, 86.62210,    -1.04962,1.00000
640.114,   61.01189,     0.14240, 86.35996,    -1.03307,1.00000
642.614,   61.26298,     0.14089, 86.10301,    -1.01310,1.00000
645.114,   61.51498,     0.14067, 85.85039,    -0.99184,1.00000
647.614,   61.76681,     0.14159, 85.60320,    -0.97182,1.00000
650.114,   62.01861,     0.14340, 85.36072,    -0.95488,1.00000
652.614,   62.27024,     0.14587, 85.12220,    -0.94155,1.00000
655.114,   62.52205,     0.14871, 84.88653,    -0.93057,1.00000
657.614,   62.77368,     0.15166, 84.65375,    -0.91913,1.00000
660.114,   63.02547,     0.15446, 84.42412,    -0.90362,1.00000
662.614,   63.27682,     0.15695, 84.19965,    -0.88071,1.00000
665.114,   63.52779,     0.15901, 83.98243,    -0.84822,1.00000
667.614,   63.77867,     0.16062, 83.77472,    -0.80555,1.00000
670.114,   64.03055,     0.16182, 83.57815,    -0.75360,1.00000
672.614,   64.28179,     0.16266, 83.39603,    -0.69520,1.00000
675.114,   64.53319,     0.16319, 83.22897,    -0.63352,1.00000
677.614,   64.78413,     0.16345, 83.07772,    -0.57232,1.00000
680.114,   65.03565,     0.16345, 82.94116,    -0.51462,1.00000
682.614,   65.28665,     0.16319, 82.81864,    -0.46311,1.00000
685.114,   65.53660,     0.16266, 82.70857,    -0.41918,1.00000
687.614,   65.78706,     0.16185, 82.60834,    -0.38275,1.00000
690.114,   66.03936,     0.16079, 82.51569,    -0.35299,1.00000
692.614,   66.29058,     0.15952, 82.43016,    -0.32894,1.00000
695.114,   66.54210,     0.15815, 82.35004,    -0.30879,1.00000
697.614,   66.79321,     0.15678, 82.27478,    -0.29099,1.00000
700.114,   67.04436,     0.15552, 82.20382,    -0.27409,1.00000
702.614,   67.29502,     0.15446, 82.13725,    -0.25698,1.00000
705.114,   67.54583,     0.15370, 82.07505,    -0.23871,1.00000
707.614,   67.79685,     0.15330, 82.01758,    -0.21876,1.00000
710.114,   68.04783,     0.15328, 81.96535,    -0.19717,1.00000
712.614,   68.29859,     0.15369, 81.91873,    -0.17451,1.00000
715.114,   68.54946,     0.15448, 81.87782,    -0.15179,1.00000
717.614,   68.80044,     0.15561, 81.84248,    -0.13014,1.00000
720.114,   69.05090,     0.15696, 81.81239,    -0.11059,1.00000
722.614,   69.30154,     0.15840, 81.78687,-9.3676e-002,1.00000
725.114,   69.55316,     0.15979, 81.76515,-7.9527e-002,1.00000
727.614,   69.80313,     0.16102, 81.74676,-6.8126e-002,1.00000
730.114,   70.05408,     0.16203, 81.73086,-5.9016e-002,1.00000
732.614,   70.30460,     0.16278, 81.71702,-5.1915e-002,1.00000
735.114,   70.55577,     0.16330, 81.70470,-4.6521e-002,1.00000
737.614,   70.80641,     0.16361, 81.69356,-4.2628e-002,1.00000
740.114,   71.05672,     0.16374, 81.68325,-3.9950e-002,1.00000
742.614,   71.30719,     0.16369, 81.67349,-3.8119e-002,1.00000
745.114,   71.55775,     0.16343, 81.66412,-3.6732e-002,1.00000
747.614,   71.80870,     0.16293, 81.65506,-3.5477e-002,1.00000
750.114,   72.05876,     0.16219, 81.64634,-3.4279e-002,1.00000
752.614,   72.30947,     0.16122, 81.63788,-3.3317e-002,1.00000
755.114,   72.55998,     0.16007, 81.62960,-3.2944e-002,1.00000
757.614,   72.81066,     0.15882, 81.62130,-3.3448e-002,1.00000
760.114,   73.06136,     0.15752, 81.61276,-3.4857e-002,1.00000
762.614,   73.31202,     0.15624, 81.60378,-3.6859e-002,1.00000
765.114,   73.56252,     0.15497, 81.59429,-3.8899e-002,1.00000
767.614,   73.81311,     0.15373, 81.58433,-4.0384e-002,1.00000
770.114,   74.06319,     0.15249, 81.57414,-4.0873e-002,1.00000
772.614,   74.31362,     0.15124, 81.56396,-4.0190e-002,1.00000
775.114,   74.56441,     0.14996, 81.55408,-3.8405e-002,1.00000
777.614,   74.81480,     0.14869, 81.54478,-3.5788e-002,1.00000
780.114,   75.06466,     0.14747, 81.53621,-3.2746e-002,1.00000
782.614,   75.31503,     0.14640, 81.52839,-2.9778e-002,1.00000
785.114,   75.56506,     0.14562, 81.52126,-2.7431e-002,1.00000
787.614,   75.81573,     0.14530, 81.51458,-2.6086e-002,1.00000
790.114,   76.06563,     0.14561, 81.50813,-2.5767e-002,1.00000
792.614,   76.31631,     0.14677, 81.50164,-2.6046e-002,1.00000
795.114,   76.56649,     0.14899, 81.49509,-2.6239e-002,1.00000
797.614,   76.81653,     0.15259, 81.48856,-2.5770e-002,1.00000
800.114,   77.06749,     0.15809, 81.48224,-2.4447e-002,1.00000
802.614,   77.31788,     0.16627, 81.47635,-2.2481e-002,1.00000
805.114,   77.56746,     0.17835, 81.47102,-2.0258e-002,1.00000
807.614,   77.81763,     0.19597, 81.46623,-1.8076e-002,1.00000
810.114,   78.06782,     0.22064, 81.46196,-1.6092e-002,1.00000
812.614,   78.31647,     0.25283, 81.45818,-1.4337e-002,1.00000
815.114,   78.56463,     0.29150, 81.45482,-1.2761e-002,1.00000
817.614,   78.81419,     0.33353, 81.45182,-1.1266e-002,1.00000
820.114,   79.06351,     0.37304, 81.44920,-9.7450e-003,1.00000
822.614,   79.31321,     0.40358, 81.44697,-8.0889e-003,1.00000
825.114,   79.56321,     0.41963, 81.44517,-6.2836e-003,1.00000
827.614,   79.81303,     0.41857, 81.44383,-4.4454e-003,1.00000
830.114,   80.06387,     0.40146, 81.44294,-2.7541e-003,1.00000
832.614,   80.31501,     0.37247, 81.44243,-1.3669e-003,1.00000
835.114,   80.56570,     0.33746, 81.44223,-3.1166e-004,1.00000
837.614,   80.81589,     0.30190, 81.44226, 5.1370e-004,1.00000
840.114,   81.06662,     0.26957, 81.44248, 1.2637e-003,1.00000
842.614,   81.31826,     0.24257, 81.44289, 2.0584e-003,1.00000
845.114,   81.56909,     0.22164, 81.44352, 2.9334e-003,1.00000
847.614,   81.82005,     0.20620, 81.44437, 3.8453e-003,1.00000
850.114,   82.07110,     0.19539, 81.44544, 4.6634e-003,1.00000
852.614,   82.32159,     0.18823, 81.44669, 5.1855e-003,1.00000
855.114,   82.57178,     0.18383, 81.44800, 5.1894e-003,1.00000
857.614,   82.82205,     0.18147, 81.44923, 4.5146e-003,1.00000
860.114,   83.07206,     0.18061, 81.45021, 3.1637e-003,1.00000
862.614,   83.32203,     0.18083, 81.45078, 1.3455e-003,1.00000
865.114,   83.57150,     0.18183, 81.45087,-5.6801e-004,1.00000
867.614,   83.82116,     0.18338, 81.45052,-2.1734e-003,1.00000
870.114,   84.07102,     0.18534, 81.44984,-3.1344e-003,1.00000
872.614,   84.32131,     0.18759, 81.44901,-3.2484e-003,1.00000
875.114,   84.57104,     0.19001, 81.44828,-2.4710e-003,1.00000
877.614,   84.82076,     0.19254, 81.44784,-9.3562e-004,1.00000
880.114,   85.07078,     0.19514, 81.44784, 1.0407e-003,1.00000
882.614,   85.32098,     0.19777, 81.44836, 3.0161e-003,1.00000
885.114,   85.57061,     0.20041, 81.44932, 4.5877e-003,1.00000
887.614,   85.81989,     0.20309, 81.45060, 5.5747e-003,1.00000
890.114,   86.06937,     0.20585, 81.45206, 6.0214e-003,1.00000
892.614,   86.31939,     0.20868, 81.45358, 6.0306e-003,1.00000
895.114,   86.56932,     0.21159, 81.45504, 5.5841e-003,1.00000
897.614,   86.81909,     0.21452, 81.45633, 4.5489e-003,1.00000
900.114,   87.06863,     0.21740, 81.45727, 2.8895e-003,1.00000
902.614,   87.31782,     0.22015, 81.45774, 8.8543e-004,1.00000
905.114,   87.56749,     0.22272, 81.45773,-8.9360e-004,1.00000
907.614,   87.81724,     0.22507, 81.45736,-1.8485e-003,1.00000
910.114,   88.06659,     0.22719, 81.45688,-1.7152e-003,1.00000
912.614,   88.31644,     0.22910, 81.45656,-7.1904e-004,1.00000
915.114,   88.56649,     0.23082, 81.45655, 5.6396e-004,1.00000
917.614,   88.81654,     0.23239, 81.45682, 1.5432e-003,1.00000
920.114,   89.06567,     0.23382, 81.45727, 1.9382e-003,1.00000
922.614,   89.31531,     0.23517, 81.45776, 1.8962e-003,1.00000
925.114,   89.56501,     0.23646, 81.45822, 1.8455e-003,1.00000
927.614,   89.81483,     0.23774, 81.45871, 2.2152e-003,1.00000
930.114,   90.06449,     0.23903, 81.45937, 3.1787e-003,1.00000
932.614,   90.31386,     0.24038, 81.46033, 4.5844e-003,1.00000
935.114,   90.56394,     0.24179, 81.46167, 6.0941e-003,1.00000
937.614,   90.81351,     0.24330, 81.46336, 7.3651e-003,1.00000
940.114,   91.06318,     0.24491, 81.46531, 8.1959e-003,1.00000
942.614,   91.31263,     0.24661, 81.46741, 8.4989e-003,1.00000
945.114,   91.56217,     0.24838, 81.46951, 8.2370e-003,1.00000
947.614,   91.81203,     0.25020, 81.47148, 7.4092e-003,1.00000
950.114,   92.06143,     0.25204, 81.47318, 6.1286e-003,1.00000
952.614,   92.31070,     0.25388, 81.47452, 4.6831e-003,1.00000
955.114,   92.56094,     0.25569, 81.47553, 3.4962e-003,1.00000
957.614,   92.81066,     0.25745, 81.47632, 2.9735e-003,1.00000
960.114,   93.06070,     0.25916, 81.47708, 3.2569e-003,1.00000
962.614,   93.31088,     0.26080, 81.47799, 4.1159e-003,1.00000
965.114,   93.56010,     0.26238, 81.47914, 5.0242e-003,1.00000
967.614,   93.80971,     0.26388, 81.48046, 5.4547e-003,1.00000
970.114,   94.05873,     0.26529, 81.48180, 5.1692e-003,1.00000
972.614,   94.30787,     0.26664, 81.48300, 4.3404e-003,1.00000
975.114,   94.55708,     0.26794, 81.48396, 3.3810e-003,1.00000
977.614,   94.80701,     0.26924, 81.48470, 2.6143e-003,1.00000
980.114,   95.05600,     0.27055, 81.48528, 2.0462e-003,1.00000
982.614,   95.30504,     0.27191, 81.48571, 1.3843e-003,1.00000
985.114,   95.55436,     0.27329, 81.48594, 3.0379e-004,1.00000
987.614,   95.80404,     0.27469, 81.48583,-1.1692e-003,1.00000
990.114,   96.05363,     0.27607, 81.48534,-2.7298e-003,1.00000
992.614,   96.30300,     0.27742, 81.48448,-4.2238e-003,1.00000
995.114,   96.55287,     0.27872, 81.48323,-5.6937e-003,1.00000
997.614,   96.80294,     0.27997, 81.48186,-1.5176e-003,1.00000